Folder: xraylarch

Note: .appveyor.yml
image: Visual Studio 2015

environment:
  matrix:
    - PYTHON_VERSION: "3.6"
      MINICONDA: "C:\\Miniconda36-x64"
    - PYTHON_VERSION: "3.7"
      MINICONDA: "C:\\Miniconda37-x64"

install:
    - "%MINICONDA%\\Scripts\\activate.bat"
    - conda config --set always_yes True
    - conda config --add channels gsecars
    - conda update conda
    - conda install python=%PYTHON_VERSION% --file requirementstxt
    - conda info -a
    - "%PYTHON%\\python.exe setup.py install"

test_script:
    - cd tests
    - "%PYTHON%\\python.exe -m pytest"

Note: .travis.yml
# Config file for automatic testing at travis-ci.org

language: python
sudo: false

python:
    - 3.6
    - 3.7-dev

before_install:
    - wget http://repo.continuum.io/miniconda/Miniconda3-latest-Linux-x86_64.sh -O miniconda.sh
    - bash miniconda.sh -b -p $HOME/xraylarch
    - export PATH="$HOME/xraylarch/bin:$PATH"
    - hash -r
    - conda config --set always_yes yes --set changeps1 no
    - conda config --add channels gsecars
    - conda update -q conda
    - conda info -a

install:
    - if [[ $TRAVIS_PYTHON_VERSION != 3.7-dev ]]; then conda create -q -n testlarch python=$TRAVIS_PYTHON_VERSION --file requirements.txt; fi
    - if [[ $TRAVIS_PYTHON_VERSION == 3.7-dev ]]; then conda create -q -n testlarch python=3.7                    --file requirements.txt; fi
    - source activate testlarch
    - conda install patchelf pango pcre pycifrw
    - python setup.py install
    - conda list


script:
    - cd tests
    - pytest

Note: README.md
stepscan
========

step scannng and data acquisition with pyepics

Note: scan1.json
{
"pos_settle_time": 0.1, 
"scantime": 7.56, 
"detectors": [{"kind": "scaler", 
               "nchan": 8.0, 
               "notes": null, 
               "use_calc": true, 
               "label": "scaler1", 
               "prefix": "13IDE:scaler1"}, 
              {"nrois": 32.0,
               "notes": null, 
               "use_full": false, 
               "use_net": false, 
               "label": "multimca",
               "prefix": "13SDD1:", 
               "kind": "multimca", 
               "nmcas": 4.0}], 
"dwelltime":  0.25, 
"filename": "ya.021", 
"positioners": [["Fine X", ["13XRM:m1.VAL", "13XRM:m1.RBV"], -1.0, 1.0, 21]],
"extra_pvs": [["Facility.Ring_Current", "S:SRcurrentAI.VAL"], 
              ["Facility.Ring_Lifetime", "S:SRlifeTimeHrsCC.VAL"], 
              ["Mono.dspacing", "13IDE:En:dspace.VAL"], 
              ["Mono.height", "13IDE:En:height.VAL"], 
              ["Beamline.I0_Sensitivity_Number", "13IDE:A1sens_num.VAL"], 
              ["Beamline.I0_Sensitivity_Units", "13IDE:A1sens_unit.VAL"]], 
"nscans": 1, 
"counters": [], 
"type": "linear", 
"det_settle_time": 0.01, 
"user_comments": ""
}

File: FeXAFS_REL_Map1_spot4_V_Fe_Ca_Sr_002.dat
# XDI/1.0  GSE/1.0
# Beamline.name:  13-ID-E, GSECARS
# Monochromator.name:  Si(111), LN2 Cooled
# Monochromator.dspacing:  3.13477
# Facility.name: APS
# Facility.xray_source: 3.6 cm undulator
# Detectors.i0:  20cm ion chamber, He
# Detectors.ifluor:  Si SDD Vortex ME-4, 4 elements
# Detectors.ifluor_electronics:  Quantum Xspress3 3.1.10
# Column.1: energy eV
# Column.2: mufluor
# Column.3: i0
# Column.4: ifluor (corrected for deadtime)
# Column.5: ifluor_raw (not corrected)
# Column.7: itrans
# Column.8: irefer
# Scan.start_time: 2015-03-26 13:01:58
# ///
# summed fe_ka fluorescence data from FeXAFS_REL_Map1_spot4_V_Fe_Ca_Sr.002
# Dead-time correction applied
#---------------------------------
#        energy         mufluor         i0          fluor_dtc        fluor_raw        counttime        itrans         irefer
      7012.005      0.03301687     241406.000       7970.47        7966.00          1.000         16.000        -88.000
      7032.009      0.04387182     286449.000      12567       12557.00          1.000         16.000        -87.000
      7052.001      0.06439323     281226.000      18109.1       18090.00          1.000         16.000        -99.000
      7072.008      0.100711     276549.000      27851.6       27810.00          1.000         15.000        -78.000
      7092.006      0.188562     275999.000      52042.8       51909.00          1.000         16.000        -88.000
      7102.404      0.311562     275969.000      85981.4       85625.00          1.000         16.000        -88.000
      7103.210      0.326896     275049.000      89912.3       89526.00          1.000         16.000        -89.000
      7104.002      0.343446     274747.000      94360.7       93935.00          1.000         16.000        -89.000
      7104.805      0.363726     274520.000      99850.1       99376.00          1.000         16.000        -90.000
      7105.605      0.390572     274266.000     107121      106577.00          1.000         16.000        -91.000
      7106.398      0.411581     274106.000     112817      112213.00          1.000         16.000        -80.000
      7107.215      0.439029     274042.000     120312      119629.00          1.000         16.000        -79.000
      7108.008      0.473302     273773.000     129577      128789.00          1.000         16.000        -80.000
      7108.805      0.517105     273718.000     141541      140597.00          1.000         16.000        -79.000
      7109.603      0.578856     273451.000     158289      157112.00          1.000         16.000        -79.000
      7110.400      0.678486     273296.000     185427      183822.00          1.000         16.000        -79.000
      7111.208      0.904421     273347.000     247221      244389.00          1.000         16.000        -79.000
      7112.003      1.39706     272811.000     381132      374410.00          1.000         16.000        -79.000
      7112.801      1.70252     272906.000     464629      454665.00          1.000         16.000        -79.000
      7113.605      2.00264     272853.000     546426      532652.00          1.000         16.000        -79.000
      7114.407      1.75332     272762.000     478239      467667.00          1.000         16.000        -78.000
      7115.206      1.68405     272557.000     458999      449251.00          1.000         16.000        -78.000
      7116.011      1.77549     272526.000     483868      472997.00          1.000         17.000        -75.000
      7116.817      1.92962     272347.000     525528      512724.00          1.000         16.000        -78.000
      7117.610      2.10061     271995.000     571356      556206.00          1.000         16.000        -78.000
      7118.406      2.41317     271992.000     656363      636377.00          1.000         16.000        -76.000
      7119.212      2.9265     271821.000     795483      766098.00          1.000         16.000        -76.000
      7120.002      3.71494     271468.000    1.00849e+06      961033.00          1.000         16.000        -76.000
      7120.808      4.81415     271319.000    1.30617e+06     1226219.00          1.000         17.000        -76.000
      7121.602      6.12938     271261.000    1.66266e+06     1531998.00          1.000         16.000        -76.000
      7122.399      7.34147     270894.000    1.98876e+06     1800690.00          1.000         17.000        -77.000
      7123.203      8.2716     270848.000    2.24035e+06     2000305.00          1.000         16.000        -76.000
      7124.017      8.99646     270366.000    2.43234e+06     2148326.00          1.000         16.000        -78.000
      7124.814      9.67539     270010.000    2.61245e+06     2283772.00          1.000         17.000        -77.000
      7125.599     10.2647     270011.000    2.77158e+06     2400039.00          1.000         16.000        -90.000
      7126.407     10.7957     269510.000    2.90956e+06     2499620.00          1.000         17.000        -87.000
      7127.202     11.1488     269340.000    3.00281e+06     2564739.00          1.000         17.000        -88.000
      7128.000     11.4332     268675.000    3.07182e+06     2613816.00          1.000         17.000        -87.000
      7128.812     11.5638     269027.000    3.11097e+06     2639787.00          1.000         16.000        -87.000
      7129.611     11.6089     270504.000    3.14026e+06     2659991.00          1.000         17.000        -88.000
      7130.406     11.5921     270508.000    3.13574e+06     2656282.00          1.000         16.000        -87.000
      7131.209     11.6205     269976.000    3.13726e+06     2657985.00          1.000         17.000        -88.000
      7132.011     11.61     270227.000    3.13734e+06     2658092.00          1.000         16.000        -87.000
      7132.814     11.5749     269881.000    3.12385e+06     2648808.00          1.000         17.000        -90.000
      7133.614     11.5328     269778.000    3.11129e+06     2640044.00          1.000         16.000        -89.000
      7134.400     11.5038     270035.000    3.10642e+06     2637501.00          1.000         16.000        -90.000
      7135.207     11.4748     270384.000    3.1026e+06     2634504.00          1.000         16.000        -89.000
      7136.011     11.4369     270236.000    3.09067e+06     2626661.00          1.000         17.000        -91.000
      7136.818     11.362     270565.000    3.07417e+06     2614445.00          1.000         17.000        -91.000
      7146.021     10.8522     271288.000    2.94407e+06     2523073.00          1.000         16.000        -79.000
      7158.016     10.2106     270340.000    2.76033e+06     2392159.00          1.000         16.000        -90.000
      7170.010     10.7113     267820.000    2.86871e+06     2469829.00          1.000         16.000        -90.000
      7182.009     11.0358     266541.000    2.94149e+06     2521873.00          1.000         16.000        -90.000
      7194.006     11.0956     264440.000    2.93412e+06     2516881.00          1.000         16.000        -90.000
      7205.998     11.0555     263418.000    2.91221e+06     2501208.00          1.000         15.000        -90.000
      7217.988     11.0009     263477.000    2.89848e+06     2491980.00          1.000         16.000        -89.000
      7230.000     11.0468     261793.000    2.89198e+06     2486895.00          1.000         16.000        -89.000
      7241.991     11.1334     257522.000    2.8671e+06     2469021.00          1.000         16.000        -89.000
      7254.004     11.1857     257875.000    2.8845e+06     2481700.00          1.000         15.000        -89.000
      7266.004     11.4802     232489.000    2.66903e+06     2326370.00          1.000         16.000        -77.000
      7277.979     11.4258     257517.000    2.94234e+06     2523274.00          1.000         16.000        -77.000
      7289.986     11.4231     257001.000    2.93574e+06     2518109.00          1.000         16.000        -78.000
      7301.989     11.4012     256478.000    2.92415e+06     2509443.00          1.000         17.000        -85.000
      7313.984     11.4433     253471.000    2.90054e+06     2493145.00          1.000         16.000        -83.000
      7325.975     11.4933     253009.000    2.90791e+06     2497944.00          1.000         16.000        -80.000
      7337.980     11.5487     251904.000    2.90916e+06     2498659.00          1.000         17.000        -81.000
      7349.986     11.5686     252943.000    2.92619e+06     2511029.00          1.000         16.000        -81.000
      7361.981     11.6131     250548.000    2.90965e+06     2499024.00          1.000         17.000        -81.000

File: SrXAFS_REL_Map1_spot14_Sr_004.dat
# XDI/1.0  GSE/1.0
# Beamline.name:  13-ID-E, GSECARS
# Monochromator.name:  Si(111), LN2 Cooled
# Monochromator.dspacing:  3.13477
# Facility.name: APS
# Facility.xray_source: 3.6 cm undulator
# Detectors.i0:  20cm ion chamber, He
# Detectors.ifluor:  Si SDD Vortex ME-4, 4 elements
# Detectors.ifluor_electronics:  Quantum Xspress3 3.1.10
# Column.1: energy eV
# Column.2: mufluor
# Column.3: i0
# Column.4: ifluor (corrected for deadtime)
# Column.5: ifluor_raw (not corrected)
# Column.7: itrans
# Column.8: irefer
# Scan.start_time: 2015-03-26 14:20:19
# ///
# summed sr_ka fluorescence data from SrXAFS_REL_Map1_spot14_Sr.004
# Dead-time correction applied
#---------------------------------
#        energy         mufluor         i0          fluor_dtc        fluor_raw        counttime        itrans         irefer
     15905.009      0.09369660       9798.000        918.039         917.00          1.500         21.000       -158.500
     15925.005      0.08242926      20415.000       1682.79        1679.00          1.500         22.000       -159.500
     15945.002      0.08515639      19750.000       1681.84        1678.00          1.500         20.000       -142.500
     15965.015      0.08490224      19953.000       1694.05        1690.00          1.500         19.000       -140.500
     15985.011      0.08046707      20243.000       1628.89        1625.00          1.500         21.000       -141.500
     16005.006      0.07831433      19505.000       1527.52        1524.00          1.500         20.000       -139.500
     16025.034      0.07627671      18963.000       1446.44        1443.00          1.500         21.000       -141.500
     16045.044      0.07992554      18852.000       1506.76        1503.00          1.500         21.000       -142.500
     16064.983      0.07450957      19771.000       1473.13        1469.00          1.500         21.000       -141.500
     16085.042      0.08145304      20654.000       1682.33        1678.00          1.500         21.000       -140.500
     16095.402      0.08388922      27311.000       2291.1        2285.00          2.000         27.000       -190.000
     16096.250      0.08459460      27374.000       2315.69        2310.00          2.000         28.000       -192.000
     16097.011      0.08929619      27346.000       2441.89        2436.00          2.000         29.000       -217.000
     16097.842      0.09074194      27380.000       2484.51        2478.00          2.000         29.000       -216.000
     16098.604      0.09062084      27462.000       2488.63        2482.00          2.000         28.000       -216.000
     16099.366      0.09383275      27517.000       2582        2575.00          2.000         28.000       -214.000
     16100.197      0.09700964      27471.000       2664.95        2658.00          2.000         28.000       -212.000
     16101.011      0.105724      27368.000       2893.45        2886.00          2.000         28.000       -220.000
     16101.808      0.107774      27290.000       2941.14        2934.00          2.000         29.000       -223.000
     16102.605      0.11374      27330.000       3108.51        3101.00          2.000         30.000       -220.000
     16103.384      0.121216      27397.000       3320.96        3312.00          2.000         29.000       -222.000
     16104.198      0.137398      27292.000       3749.85        3739.00          2.000         29.000       -215.000
     16105.013      0.161712      27666.000       4473.93        4461.00          2.000         29.000       -214.000
     16105.775      0.193541      27637.000       5348.89        5332.00          2.000         29.000       -193.000
     16106.607      0.224652      27351.000       6144.45        6126.00          2.000         27.000       -191.000
     16107.404      0.269229      27399.000       7376.6        7356.00          2.000         28.000       -191.000
     16108.167      0.301438      27456.000       8276.27        8255.00          2.000         29.000       -188.000
     16109.034      0.351133      27352.000       9604.19        9580.00          2.000         29.000       -188.000
     16109.831      0.403327      27366.000      11037.4       11008.00          2.000         28.000       -191.000
     16110.594      0.46133      27352.000      12618.3       12584.00          2.000         29.000       -188.000
     16111.392      0.500217      27302.000      13656.9       13620.00          2.000         29.000       -188.000
     16112.207      0.537938      27104.000      14580.3       14541.00          2.000         30.000       -188.000
     16113.005      0.580516      27091.000      15726.7       15685.00          2.000         30.000       -203.000
     16113.820      0.61983      27075.000      16781.9       16737.00          2.000         29.000       -205.000
     16114.600      0.638779      27307.000      17443.1       17395.00          2.000         29.000       -202.000
     16115.398      0.667389      27191.000      18147       18097.00          2.000         28.000       -187.000
     16116.179      0.653057      26994.000      17628.6       17578.00          2.000         27.000       -185.000
     16117.047      0.675301      27031.000      18254.1       18202.00          2.000         28.000       -187.000
     16117.810      0.601672      26853.000      16156.7       16108.00          2.000         28.000       -188.000
     16118.609      0.60107      26839.000      16132.1       16083.00          2.000         29.000       -188.000
     16119.407      0.636616      26587.000      16925.7       16879.00          2.000         30.000       -188.000
     16120.223      0.622862      26410.000      16449.8       16404.00          2.000         29.000       -189.000
     16120.987      0.599607      26470.000      15871.6       15824.00          2.000         29.000       -187.000
     16121.786      0.562353      26187.000      14726.3       14677.00          2.000         30.000       -191.000
     16122.602      0.528303      26245.000      13865.3       13810.00          2.000         29.000       -190.000
     16123.418      0.520717      26151.000      13617.3       13553.00          2.000         28.000       -190.000
     16124.182      0.555808      25880.000      14384.3       14316.00          2.000         28.000       -189.000
     16125.068      0.577646      25890.000      14955.3       14875.00          2.000         29.000       -190.000
     16125.798      0.56421      25808.000      14561.1       14471.00          2.000         29.000       -186.000
     16126.684      0.569243      25653.000      14602.8       14524.00          2.000         29.000       -190.000
     16127.396      0.543268      25636.000      13927.2       13860.00          2.000         29.000       -188.000
     16128.230      0.48654      25309.000      12313.9       12258.00          2.000         29.000       -185.000
     16129.047      0.466095      25055.000      11678       11629.00          2.000         29.000       -185.000
     16129.812      0.473454      25128.000      11897       11851.00          2.000         29.000       -187.000
     16139.012      0.477346      19189.000       9159.79        9132.00          1.500         22.000       -140.500
     16151.027      0.52712      18806.000       9913.01        9886.00          1.500         22.000       -142.500
     16163.009      0.495092      19079.000       9445.86        9422.00          1.500         22.000       -144.500
     16175.008      0.49162      19266.000       9471.54        9448.00          1.500         22.000       -145.500
     16186.990      0.484141      19456.000       9419.45        9396.00          1.500         22.000       -142.500
     16199.008      0.455179      19628.000       8934.26        8910.00          1.500         22.000       -143.500
     16210.956      0.419523      19664.000       8249.5        8226.00          1.500         22.000       -142.500
     16222.992      0.423058      19539.000       8266.13        8243.00          1.500         23.000       -141.500
     16234.993      0.43047      19130.000       8234.88        8213.00          1.500         23.000       -175.500
     16246.995      0.427478      18738.000       8010.08        7989.00          1.500         22.000       -176.500
     16259.050      0.381358      18469.000       7043.3        7024.00          1.500         22.000       -176.500
     16271.016      0.41818      18496.000       7734.66        7715.00          1.500         23.000       -164.500
     16282.983      0.458064      18702.000       8566.72        8546.00          1.500         23.000       -163.500
     16295.021      0.459286      19173.000       8805.9        8785.00          1.500         22.000       -160.500
     16306.987      0.454036      19530.000       8867.33        8845.00          1.500         22.000       -160.500
     16319.007      0.456562      19958.000       9112.07        9089.00          1.500         22.000       -161.500
     16330.992      0.451794      19849.000       8967.67        8941.00          1.500         23.000       -158.500
     16342.976      0.439703      19607.000       8621.25        8593.00          1.500         22.000       -159.500
     16354.978      0.418684      18838.000       7887.17        7858.00          1.500         22.000       -162.500