Folder: xraylarch/stage_A

Note: README.md
stepscan
========

step scannng and data acquisition with pyepics

File: Test1.dat
# XDI/1.0  GSE/1.0
# Column.1: energy eV
# Column.2: mufluor
# Column.3: mutrans
# Column.4: ifluor # deadtime-corrected
# Column.5: ifluor_raw # not deadtime-corrected
# Column.6: i0
# Column.7: itrans
# Column.8: irefer
# Column.9: counttime sec
# Beamline.fluxestimate: 2.074e+09  ||  13XRM:ION:FluxOut.VAL
# Beamline.foe_slit_hpos: 0.5000  ||  13IDA:m5.VAL
# Beamline.foe_slit_hwid: 0.3500  ||  13IDA:m6.VAL
# Beamline.foe_slit_vpos: -0.4001  ||  13IDA:m7.VAL
# Beamline.foe_slit_vwid: 0.2000  ||  13IDA:m8.VAL
# Beamline.i0_sensitivity_number: 50  ||  13IDE:A1sens_num.VAL
# Beamline.i0_sensitivity_unit: pA/V  ||  13IDE:A1sens_unit.VAL
# Beamline.i1_sensitivity_number: 50  ||  13IDE:A2sens_num.VAL
# Beamline.i1_sensitivity_unit: nA/V  ||  13IDE:A2sens_unit.VAL
# Beamline.i2_sensitivity_number: 500  ||  13IDE:A3sens_num.VAL
# Beamline.i2_sensitivity_unit: nA/V  ||  13IDE:A3sens_unit.VAL
# Beamline.ssa_slit_hpos: 0.0102  ||  13IDA:m69.VAL
# Beamline.ssa_slit_hwid: 0.0400  ||  13IDA:m70.VAL
# Beamline.ssa_slit_vpos: 1.0012  ||  13IDA:m71.VAL
# Beamline.ssa_slit_vwid: 0.2500  ||  13IDA:m72.VAL
# Beamline.name: 13-ID-E, GSECARS
# Facility.ring_current: 102.2  ||  S:SRcurrentAI.VAL
# Facility.ring_lifetime: 10.5  ||  S:SRlifeTimeHrsCC.VAL
# Facility.name: APS
# Facility.xray_source: 3.6 cm undulator
# Monochromator.dspacing: 1.63716  ||  13IDE:En:dspace.VAL
# Monochromator.energy: 7200  ||  13IDE:En:Energy.VAL
# Monochromator.height: 26.40000  ||  13IDE:En:height.VAL
# Monochromator.theta_offset: 17.63169  ||  13IDA:m65.OFF
# Monochromator.xtal2_pitch: 0.1400  ||  13IDA:m67.VAL
# Monochromator.xtal2_rol: 0.8250  ||  13IDA:m68.VAL
# Monochromator.xtal2_y: 15.5196  ||  13IDA:m66.VAL
# Monochromator.xtal2_y_off: 11.6000  ||  13IDA:m66.OFF
# Monochromator.name: Si(311), LN2 cooled
# Undulator.energy: 7.434  ||  ID13us:Energy.VAL
# Detectors.i0: 20cm ion chamber, He
# Detectors.ifluor: Si SDD Vortex ME-4, 4 elements
# Detectors.ifluor_electronics: Quantum Xspress3 3.1.10
# Scaler.calc1: A  ||  13IDE:scaler1_calc1.CALC
# Scaler.calc2: B-(A*6.958e-05)  ||  13IDE:scaler1_calc2.CALC
# Scaler.calc3: C-(A*1.9438e-05)  ||  13IDE:scaler1_calc3.CALC
# Scaler.calc4: D-(A*1.6694e-05)  ||  13IDE:scaler1_calc4.CALC
# Scaler.frequency: 5e+07  ||  13IDE:scaler1.FREQ
# Scaler.read_delay: 0  ||  13IDE:scaler1.DLY
# Detectorstage.x: 3660.0  ||  13IDE:m34.VAL
# Detectorstage.y: 6.900  ||  13IDE:m4.VAL
# Detectorstage.z: 40.0000  ||  13IDE:m19.VAL
# Samplestage.coarsex: 59.5025  ||  13XRM:m4.VAL
# Samplestage.coarsey: 10.2230  ||  13XRM:m5.VAL
# Samplestage.coarsez: 181.7323  ||  13XRM:m6.VAL
# Samplestage.finex: 0  ||  13XRM:m1.VAL
# Samplestage.finey: 0  ||  13XRM:m2.VAL
# Samplestage.theta: 0  ||  13XRM:m3.VAL
# Scan.end_time: 2016-10-18 15:05:28
# Scan.start_time: 2016-10-18 14:54:00
# Scanparameters.e0: 7112.000
# Scanparameters.legend: Start, Stop, Step, K-space, Time
# Scanparameters.region1: -100.000,   -10.000,     2.500  False  1.00
# Scanparameters.region2: -10.000,     7.999,     0.100  False  2.00
# Scanparameters.region3: 1.449,     8.100,     0.050  True  1.00
# Scanparameters.scantype: xafs
# ///
# summed fe_ka fluorescence data from Pistone_2016_3_AII_45_a.001
# Dead-time correction applied
#------------------------------------------------------------------------------
#     energy       mufluor       mutrans        ifluor    ifluor_raw            i0        itrans        irefer     counttime
   7012     0.0051836    10.3696      677.4091           677        130684      4.099903     -4.700083             1
   7024.5     0.0054493    10.3254      681.3852           681        125041      4.099903     -5.700083             1
   7037     0.0055105    10.4704      796.5251           796        144547      4.099903     -4.700083             1
   7049.5     0.0058621    10.2757      867.5804           867        147997      5.099903     -7.700083             1
   7062     0.0074271    10.2871      1111.763          1111        149691      5.099903     -8.700083             1
   7074.5     0.0087148    10.5262       1331.95          1331        152838      4.099903     -0.700083             1
   7087     0.0111002    10.5522      1741.295          1740        156871      4.099903     -1.700083             1
   7099.5     0.0166002    10.5754      2665.114          2663        160547      4.099883       -0.7001             1
   7102.4     0.0199275    10.5853      6462.254          6457        324288      8.199903      8.599917             2
   7102.9     0.0206938    10.7168      6720.536          6715        324761      7.199903      5.599917             2
   7103.4     0.0210874    10.5847      6834.607          6829        324109      8.199903      9.599917             2
   7103.9     0.0217103    10.5855      7041.765          7036        324351      8.199903      8.599917             2
   7104.4     0.0220293    10.5878      7161.929          7156        325109      8.199903      8.599917             2
   7104.9     0.0231591    10.7154      7511.185          7505        324330      7.199903      8.599917             2
   7105.4     0.0242368    10.5845      7853.507          7847        324033      8.199903      8.599917             2
   7105.9     0.0255104    10.5836      8258.931          8252        323747      8.199903      8.599917             2
   7106.4     0.0257747    10.5852      8358.044          8351        324273      8.199903      5.599917             2
   7106.9     0.0276513    10.5873      8985.612          8978        324962      8.199903      7.599917             2
   7107.4     0.0289307    10.5894      9421.104          9413        325644      8.199903      8.599917             2
   7107.9     0.0301618    10.474      9818.523          9810        325528      9.199903      9.599917             2
   7108.4     0.0323604    10.5908      10552.26         10543        326086      8.199903      8.599917             2
   7108.9     0.0347229    10.7205      11319.09         11309        325984      7.199903      6.599917             2
   7109.4     0.0379831    10.4763      12393.29         12382        326284      9.199903      7.599917             2
   7109.9     0.0428308    10.3739         13985         13972        326517       10.1999      7.599917             2
   7110.4     0.0512532    10.5877      16662.12         16646        325094      8.199903      7.599917             2
   7110.9     0.0666613    10.714      21589.53         21567        323869      7.199903      6.599917             2
   7111.4     0.0872619    10.4692      28271.12         28239        323980      9.199903      4.599917             2
   7111.9     0.1008743    10.5773       32453.9         32415        321726      8.199903      5.599917             2
   7112.4     0.1195506    10.4633      38504.26         38455        322075      9.199903      5.599917             2
   7112.9     0.1547043    10.4655      49934.85         49862        322776      9.199903      5.599917             2
   7113.4     0.1784450    10.5775      57417.19         57327        321764      8.199903     -4.400083             2
   7113.9     0.1541840    10.5726      49371.42         49300        320211      8.199903     -5.400083             2
   7114.4     0.1175918    10.7024      37643.85         37596        320123      7.199903     -4.400083             2
   7114.9     0.1019338    10.5697      32546.85         32508        319294      8.199903     -3.400083             2
   7115.4     0.1028551    10.5702      32857.36         32818        319453      8.199903     -3.400083             2
   7115.9     0.1167481    10.57      37285.38         37238        319366      8.199903     -2.400083             2
   7116.4     0.1410169    10.6705      43727.64         43669        310088      7.199903     -3.400083             2
   7116.9     0.1776641    10.8464      56559.73         56472        318352      6.199903     -3.400083             2
   7117.4     0.2257483    10.701      72166.07         72037        319675      7.199903     -3.400083             2
   7117.9     0.2978131    10.3517      95107.52         94905        319353       10.1999      0.599917             2
   7118.4     0.3777484    10.5712      120788.8        120485        319760      8.199903     -2.400083             2
   7118.9     0.4514579    10.4543        144099        143684        319186      9.199903     -4.400083             2
   7119.4     0.5240280    10.3519      167389.2        166852        319428       10.1999     -9.400083             2
   7119.9     0.5888814    10.3506      187866.1        187207        319022       10.1999     -10.40008             2
   7122.36     0.9142968    10.3476      145399.7        144665        159029      5.099903     -4.700083             1
   7125.74     1.32928    10.3462        211101        209621        158809      5.099883       -4.7001             1
   7129.6     1.53884    10.1624      243225.6        241284        158058      6.099903     -4.700083             1
   7133.94     1.54863    10.3299      241948.1        240030        156234      5.099903     -4.700083             1
   7138.74     1.49675    10.3221      232023.7        230251        155018      5.099903     -4.700083             1
   7144.03     1.41959    10.3388      223764.1        222110        157626      5.099903     -3.700083             1
   7149.79     1.31701    10.3517      210306.2        208834        159684      5.099903     -4.700083             1
   7156.03     1.22903    10.3601      197898.1        196585        161020      5.099903     -4.700083             1
   7162.74     1.21015    10.1841      195452.5        194170        161511      6.099903     -4.700083             1
   7169.93     1.25339    10.1873      203084.9        201704        162029      6.099903     -4.700083             1
   7177.6     1.32244    10.1893      214721.6        213187        162368      6.099903     -5.700083             1
   7185.74     1.35173    10.19      219625.9        218025        162478      6.099903     -4.700083             1
   7194.37     1.37232    10.1924      223491.6        221837        162857      6.099903     -5.700083             1
   7203.46     1.35818    10.2031      223587.5        221925        164623      6.099922     -5.700067             1
   7213.03     1.34805    10.3795      221313.9        219682        164173      5.099903     -5.700083             1
   7223.08     1.33542    10.3827      219945.6        218335        164701      5.099903     -4.700083             1
   7233.61     1.33208    10.6029      219834.6        218224        165031      4.099903     -5.700083             1
   7244.61     1.32827    10.6036      219349.7        217746        165139      4.099903     -4.700083             1
   7256.09     1.34203    10.5995      220722.6        219099        164469      4.099903     -1.700083             1
   7268.05     1.35147    10.598      221937.7        220299        164220      4.099903     -1.700083             1
   7280.48     1.35839    10.3776      222602.9        220954        163873      5.099903     -4.700083             1
   7293.39     1.36079    10.3796      223426.8        221765        164189      5.099903     -4.700083             1
   7306.77     1.36027    10.3715        221554        219919        162875      5.099903     -4.700083             1
   7320.63     1.35019    10.3631      218067.6        216482        161509      5.099903     -3.700083             1
   7334.97     1.359    10.3483      216277.5        214724        159145      5.099903     -4.700083             1
   7349.78     1.34971    10.3413      213295.3        211779        158030      5.099903     -3.700083             1
   7361.97     1.35504    10.3332      212406.9        210902        156753      5.099903     -0.700083             1